ENLIGHTEN Version,3.2.30
Measurement ID,,,20230419-151809-671888-WP-00643
Serial Number,,,WP-00643
Model,,,WP-785-R-SR-LMMF
Detector,,,S11511
Label,,,15:18:09 WP-00643
Declared Match,,,
Declared Score,,,0
Scan Averaging,,,100
Boxcar,,,0
Technique,,,
Baseline Correction Algo,,,
ROI Pixel Start,,,0
ROI Pixel End,,,1023
CCD C4,,,0
Slit Width,,,50
Vignetted,,,True
Interpolated,,,False
Wavenumber Correction,,,0
Raman Intensity Corrected,,,False
Deconvolved,,,False
Region,,,
Laser Power mW,,,
Battery %,,,
Device ID,,,<DeviceID USB USB:0x24aa:0x1000:20:7>
FW Version,,,10.0.0.7
FPGA Version,,,028-007
Integration Time,,,50
Timestamp,,,2023-04-19 15:18:09.671888
Note,,,
Temperature,,,10.0619521163473
CCD C0,,,801.6218872070312
CCD C1,,,0.14136843383312225
CCD C2,,,-5.6535209296271205e-06
CCD C3,,,-8.444376753402594e-09
CCD Offset,,,0
CCD Gain,,,1.9
CCD Offset Odd,,,0
CCD Gain Odd,,,1.9
Laser Wavelength,,,784.816
Laser Enable,,,True
Laser Power %,,,100.0
Laser Temperature,,,-95.6635622537485
Pixel Count,,,1024

WP-00643,,,15:18:09 WP-00643
Pixel,Wavelength,Wavenumber,Processed
0,801.62,267.13,1141.73
1,801.76,269.33,1195.18
2,801.90,271.53,1284.17
3,802.05,273.73,1424.28
4,802.19,275.92,1617.91
5,802.33,278.12,1877.36
6,802.47,280.31,2207.38
7,802.61,282.51,2613.10
8,802.75,284.70,2955.68
9,802.89,286.89,3041.49
10,803.03,289.08,2863.69
11,803.18,291.27,2501.74
12,803.32,293.46,2007.83
13,803.46,295.65,1536.94
14,803.60,297.84,1280.29
15,803.74,300.02,1171.29
16,803.88,302.21,1119.65
17,804.02,304.39,1086.94
18,804.16,306.58,1066.11
19,804.31,308.76,1049.68
20,804.45,310.94,1036.12
21,804.59,313.12,1022.53
22,804.73,315.30,1015.29
23,804.87,317.48,1009.59
24,805.01,319.66,1003.49
25,805.15,321.83,998.42
26,805.29,324.01,994.49
27,805.43,326.18,988.00
28,805.58,328.36,985.43
29,805.72,330.53,982.42
30,805.86,332.70,979.43
31,806.00,334.87,979.94
32,806.14,337.04,974.06
33,806.28,339.21,973.35
34,806.42,341.38,969.10
35,806.56,343.54,969.79
36,806.70,345.71,965.53
37,806.84,347.88,966.96
38,806.99,350.04,970.23
39,807.13,352.20,978.66
40,807.27,354.37,989.96
41,807.41,356.53,1007.55
42,807.55,358.69,1032.98
43,807.69,360.85,1067.48
44,807.83,363.00,1109.75
45,807.97,365.16,1160.79
46,808.11,367.32,1222.34
47,808.25,369.47,1294.99
48,808.39,371.63,1375.78
49,808.53,373.78,1456.75
50,808.68,375.93,1510.70
51,808.82,378.09,1514.34
52,808.96,380.24,1466.19
53,809.10,382.39,1374.34
54,809.24,384.54,1267.39
55,809.38,386.68,1175.88
56,809.52,388.83,1125.40
57,809.66,390.98,1135.43
58,809.80,393.12,1206.75
59,809.94,395.27,1356.44
60,810.08,397.41,1614.68
61,810.22,399.55,2019.68
62,810.36,401.69,2521.47
63,810.50,403.83,2909.98
64,810.64,405.97,3158.14
65,810.78,408.11,3298.55
66,810.93,410.25,3133.09
67,811.07,412.38,2684.32
68,811.21,414.52,2243.98
69,811.35,416.65,1824.95
70,811.49,418.79,1386.53
71,811.63,420.92,1125.51
72,811.77,423.05,1043.74
73,811.91,425.18,1046.86
74,812.05,427.31,1097.03
75,812.19,429.44,1197.41
76,812.33,431.56,1353.28
77,812.47,433.69,1556.92
78,812.61,435.82,1775.06
79,812.75,437.94,1931.53
80,812.89,440.07,1930.58
81,813.03,442.19,1801.87
82,813.17,444.31,1590.40
83,813.31,446.43,1341.95
84,813.45,448.55,1134.95
85,813.59,450.67,1027.94
86,813.73,452.79,985.40
87,813.87,454.90,966.47
88,814.01,457.02,958.48
89,814.15,459.14,951.94
90,814.29,461.25,946.31
91,814.43,463.36,942.62
92,814.57,465.47,941.34
93,814.71,467.59,937.60
94,814.85,469.70,935.43
95,814.99,471.81,933.54
96,815.13,473.91,931.02
97,815.27,476.02,930.37
98,815.41,478.13,928.86
99,815.55,480.23,929.15
100,815.69,482.34,927.25
101,815.83,484.44,926.07
102,815.97,486.54,926.03
103,816.11,488.64,925.74
104,816.25,490.74,925.97
105,816.39,492.84,925.67
106,816.53,494.94,926.61
107,816.67,497.04,925.61
108,816.81,499.14,928.15
109,816.95,501.23,927.87
110,817.09,503.33,930.35
111,817.23,505.42,928.41
112,817.37,507.51,928.01
113,817.51,509.61,929.79
114,817.65,511.70,928.68
115,817.79,513.79,929.37
116,817.93,515.88,932.00
117,818.07,517.96,932.71
118,818.21,520.05,937.58
119,818.35,522.14,946.06
120,818.49,524.22,953.22
121,818.63,526.31,964.05
122,818.77,528.39,973.92
123,818.91,530.47,987.30
124,819.05,532.55,997.99
125,819.19,534.63,1007.81
126,819.33,536.71,1016.22
127,819.47,538.79,1025.04
128,819.61,540.87,1032.91
129,819.75,542.94,1048.11
130,819.89,545.02,1067.58
131,820.03,547.09,1102.41
132,820.16,549.17,1163.70
133,820.30,551.24,1266.57
134,820.44,553.31,1437.26
135,820.58,555.38,1718.64
136,820.72,557.45,2169.71
137,820.86,559.52,2811.59
138,821.00,561.59,3545.56
139,821.14,563.65,4049.73
140,821.28,565.72,4108.09
141,821.42,567.78,3794.71
142,821.56,569.85,3145.81
143,821.70,571.91,2353.32
144,821.84,573.97,1732.65
145,821.98,576.03,1394.76
146,822.11,578.09,1237.95
147,822.25,580.15,1158.92
148,822.39,582.21,1122.27
149,822.53,584.26,1104.68
150,822.67,586.32,1093.47
151,822.81,588.37,1085.68
152,822.95,590.43,1079.41
153,823.09,592.48,1064.36
154,823.23,594.53,1053.66
155,823.37,596.58,1039.59
156,823.51,598.63,1036.26
157,823.64,600.68,1048.14
158,823.78,602.73,1098.49
159,823.92,604.78,1223.53
160,824.06,606.82,1493.60
161,824.20,608.87,2025.99
162,824.34,610.91,3085.38
163,824.48,612.96,4576.94
164,824.62,615.00,5841.99
165,824.76,617.04,6278.78
166,824.89,619.08,5875.68
167,825.03,621.12,4770.79
168,825.17,623.16,3206.61
169,825.31,625.19,1875.25
170,825.45,627.23,1242.74
171,825.59,629.27,1091.63
172,825.73,631.30,1106.40
173,825.87,633.33,1246.56
174,826.00,635.37,1417.80
175,826.14,637.40,1495.27
176,826.28,639.43,1483.17
177,826.42,641.46,1398.88
178,826.56,643.49,1225.65
179,826.70,645.51,1042.36
180,826.84,647.54,963.42
181,826.97,649.57,945.08
182,827.11,651.59,939.86
183,827.25,653.61,941.60
184,827.39,655.64,942.16
185,827.53,657.66,944.89
186,827.67,659.68,942.80
187,827.80,661.70,941.43
188,827.94,663.72,939.82
189,828.08,665.73,936.49
190,828.22,667.75,936.12
191,828.36,669.77,935.53
192,828.50,671.78,940.09
193,828.63,673.80,950.60
194,828.77,675.81,968.70
195,828.91,677.82,1005.50
196,829.05,679.83,1063.33
197,829.19,681.84,1127.93
198,829.33,683.85,1165.52
199,829.46,685.86,1173.86
200,829.60,687.87,1158.20
201,829.74,689.87,1129.98
202,829.88,691.88,1112.65
203,830.02,693.88,1111.14
204,830.15,695.88,1123.98
205,830.29,697.89,1152.22
206,830.43,699.89,1204.54
207,830.57,701.89,1262.63
208,830.71,703.89,1301.65
209,830.84,705.88,1331.03
210,830.98,707.88,1373.27
211,831.12,709.88,1464.98
212,831.26,711.87,1745.31
213,831.40,713.87,2528.95
214,831.53,715.86,4324.70
215,831.67,717.85,6867.79
216,831.81,719.84,8399.15
217,831.95,721.83,8716.67
218,832.08,723.82,8066.77
219,832.22,725.81,6186.81
220,832.36,727.80,3664.83
221,832.50,729.79,2101.80
222,832.63,731.77,1487.06
223,832.77,733.76,1242.02
224,832.91,735.74,1139.56
225,833.05,737.72,1092.85
226,833.18,739.70,1066.71
227,833.32,741.68,1059.08
228,833.46,743.66,1042.91
229,833.60,745.64,1040.23
230,833.73,747.62,1042.79
231,833.87,749.60,1051.48
232,834.01,751.57,1070.02
233,834.15,753.55,1115.07
234,834.28,755.52,1211.46
235,834.42,757.49,1424.20
236,834.56,759.46,1904.94
237,834.70,761.43,2683.76
238,834.83,763.40,3250.29
239,834.97,765.37,3378.00
240,835.11,767.34,3220.22
241,835.25,769.31,2720.39
242,835.38,771.27,1911.66
243,835.52,773.24,1331.10
244,835.66,775.20,1102.05
245,835.79,777.16,1019.93
246,835.93,779.13,984.74
247,836.07,781.09,968.12
248,836.20,783.05,961.89
249,836.34,785.01,957.74
250,836.48,786.96,956.06
251,836.62,788.92,954.63
252,836.75,790.88,954.09
253,836.89,792.83,955.11
254,837.03,794.78,954.64
255,837.16,796.74,957.54
256,837.30,798.69,968.15
257,837.44,800.64,987.04
258,837.57,802.59,1022.32
259,837.71,804.54,1087.34
260,837.85,806.49,1194.43
261,837.98,808.44,1294.67
262,838.12,810.38,1338.15
263,838.26,812.33,1329.09
264,838.39,814.27,1269.32
265,838.53,816.21,1161.71
266,838.67,818.16,1058.66
267,838.80,820.10,1003.36
268,838.94,822.04,978.22
269,839.08,823.98,970.97
270,839.21,825.91,970.92
271,839.35,827.85,977.90
272,839.49,829.79,987.52
273,839.62,831.72,1006.44
274,839.76,833.66,1031.73
275,839.90,835.59,1064.25
276,840.03,837.52,1108.76
277,840.17,839.45,1166.80
278,840.30,841.38,1261.15
279,840.44,843.31,1438.02
280,840.58,845.24,1700.03
281,840.71,847.17,1909.07
282,840.85,849.10,2008.62
283,840.98,851.02,2084.94
284,841.12,852.95,2147.35
285,841.26,854.87,2165.94
286,841.39,856.79,2151.85
287,841.53,858.71,2108.41
288,841.67,860.63,2007.24
289,841.80,862.55,1801.04
290,841.94,864.47,1538.09
291,842.07,866.39,1348.85
292,842.21,868.31,1245.68
293,842.35,870.22,1176.39
294,842.48,872.14,1119.24
295,842.62,874.05,1078.41
296,842.75,875.96,1054.62
297,842.89,877.87,1036.61
298,843.02,879.78,1020.63
299,843.16,881.69,1009.55
300,843.30,883.60,993.17
301,843.43,885.51,981.07
302,843.57,887.42,973.08
303,843.70,889.32,967.64
304,843.84,891.23,967.33
305,843.97,893.13,970.22
306,844.11,895.03,976.21
307,844.24,896.93,982.31
308,844.38,898.84,989.66
309,844.52,900.74,995.07
310,844.65,902.63,996.01
311,844.79,904.53,997.90
312,844.92,906.43,1004.58
313,845.06,908.32,1011.21
314,845.19,910.22,1030.92
315,845.33,912.11,1064.07
316,845.46,914.01,1125.70
317,845.60,915.90,1191.55
318,845.73,917.79,1235.09
319,845.87,919.68,1246.51
320,846.00,921.57,1229.13
321,846.14,923.46,1174.51
322,846.27,925.34,1120.67
323,846.41,927.23,1101.38
324,846.54,929.11,1133.76
325,846.68,931.00,1228.12
326,846.81,932.88,1352.96
327,846.95,934.76,1440.97
328,847.08,936.64,1509.34
329,847.22,938.52,1590.19
330,847.35,940.40,1661.49
331,847.49,942.28,1685.56
332,847.62,944.16,1713.89
333,847.76,946.03,1681.85
334,847.89,947.91,1565.45
335,848.03,949.78,1394.85
336,848.16,951.65,1246.67
337,848.30,953.53,1135.62
338,848.43,955.40,1086.52
339,848.57,957.27,1082.18
340,848.70,959.14,1093.12
341,848.84,961.01,1101.80
342,848.97,962.87,1110.31
343,849.11,964.74,1123.35
344,849.24,966.60,1145.22
345,849.37,968.47,1180.46
346,849.51,970.33,1214.41
347,849.64,972.19,1249.93
348,849.78,974.05,1311.87
349,849.91,975.91,1422.49
350,850.05,977.77,1717.64
351,850.18,979.63,2385.62
352,850.31,981.49,3345.38
353,850.45,983.35,4147.35
354,850.58,985.20,4743.78
355,850.72,987.06,5376.14
356,850.85,988.91,6430.70
357,850.99,990.76,9005.97
358,851.12,992.61,14819.36
359,851.25,994.46,21247.28
360,851.39,996.31,26555.13
361,851.52,998.16,30781.35
362,851.66,1000.01,31553.03
363,851.79,1001.85,27388.27
364,851.92,1003.70,21502.91
365,852.06,1005.54,15782.47
366,852.19,1007.39,10059.60
367,852.33,1009.23,5892.69
368,852.46,1011.07,3588.39
369,852.59,1012.91,2489.47
370,852.73,1014.75,2071.23
371,852.86,1016.59,2049.06
372,852.99,1018.43,2323.33
373,853.13,1020.26,3127.97
374,853.26,1022.10,5184.54
375,853.39,1023.93,8617.33
376,853.53,1025.77,11310.97
377,853.66,1027.60,12434.55
378,853.80,1029.43,12200.09
379,853.93,1031.26,10364.08
380,854.06,1033.09,6944.78
381,854.20,1034.92,4035.53
382,854.33,1036.75,2485.02
383,854.46,1038.57,1804.27
384,854.60,1040.40,1513.95
385,854.73,1042.22,1367.14
386,854.86,1044.05,1284.69
387,855.00,1045.87,1238.77
388,855.13,1047.69,1202.85
389,855.26,1049.51,1188.68
390,855.39,1051.33,1176.61
391,855.53,1053.15,1175.73
392,855.66,1054.97,1173.62
393,855.79,1056.78,1176.62
394,855.93,1058.60,1182.50
395,856.06,1060.41,1182.92
396,856.19,1062.23,1184.37
397,856.33,1064.04,1179.52
398,856.46,1065.85,1184.94
399,856.59,1067.66,1204.55
400,856.72,1069.47,1247.57
401,856.86,1071.28,1297.09
402,856.99,1073.09,1332.37
403,857.12,1074.90,1338.42
404,857.26,1076.70,1311.74
405,857.39,1078.51,1255.19
406,857.52,1080.31,1188.73
407,857.65,1082.11,1135.38
408,857.79,1083.92,1105.64
409,857.92,1085.72,1096.36
410,858.05,1087.52,1099.67
411,858.18,1089.31,1103.15
412,858.32,1091.11,1103.72
413,858.45,1092.91,1103.57
414,858.58,1094.70,1096.45
415,858.71,1096.50,1089.57
416,858.84,1098.29,1081.14
417,858.98,1100.09,1079.70
418,859.11,1101.88,1081.11
419,859.24,1103.67,1082.64
420,859.37,1105.46,1092.65
421,859.51,1107.25,1094.06
422,859.64,1109.04,1105.34
423,859.77,1110.82,1120.50
424,859.90,1112.61,1145.85
425,860.03,1114.39,1181.10
426,860.17,1116.18,1230.96
427,860.30,1117.96,1301.37
428,860.43,1119.74,1384.17
429,860.56,1121.52,1484.12
430,860.69,1123.30,1588.31
431,860.83,1125.08,1710.07
432,860.96,1126.86,1884.53
433,861.09,1128.64,2127.76
434,861.22,1130.41,2466.05
435,861.35,1132.19,2877.40
436,861.48,1133.96,3356.65
437,861.62,1135.74,3944.36
438,861.75,1137.51,4737.77
439,861.88,1139.28,5881.16
440,862.01,1141.05,7338.99
441,862.14,1142.82,9046.16
442,862.27,1144.59,11116.27
443,862.40,1146.35,13382.24
444,862.54,1148.12,14968.96
445,862.67,1149.88,15107.38
446,862.80,1151.65,14090.25
447,862.93,1153.41,12311.24
448,863.06,1155.17,10209.05
449,863.19,1156.93,8656.01
450,863.32,1158.69,7742.12
451,863.45,1160.45,7355.06
452,863.59,1162.21,7357.35
453,863.72,1163.97,6872.85
454,863.85,1165.73,5602.26
455,863.98,1167.48,4439.65
456,864.11,1169.23,3627.59
457,864.24,1170.99,2917.53
458,864.37,1172.74,2571.37
459,864.50,1174.49,2550.25
460,864.63,1176.24,2607.10
461,864.76,1177.99,2692.07
462,864.89,1179.74,2801.96
463,865.03,1181.49,2957.35
464,865.16,1183.23,3102.02
465,865.29,1184.98,3121.17
466,865.42,1186.72,2989.28
467,865.55,1188.46,2671.98
468,865.68,1190.21,2183.60
469,865.81,1191.95,1693.59
470,865.94,1193.69,1387.31
471,866.07,1195.43,1247.12
472,866.20,1197.17,1189.59
473,866.33,1198.90,1167.34
474,866.46,1200.64,1157.01
475,866.59,1202.38,1154.06
476,866.72,1204.11,1143.41
477,866.85,1205.84,1133.31
478,866.98,1207.58,1119.64
479,867.11,1209.31,1103.61
480,867.24,1211.04,1085.54
481,867.37,1212.77,1067.85
482,867.50,1214.49,1057.73
483,867.63,1216.22,1046.40
484,867.76,1217.95,1040.77
485,867.89,1219.67,1039.93
486,868.02,1221.40,1038.26
487,868.15,1223.12,1038.66
488,868.28,1224.84,1038.10
489,868.41,1226.57,1041.88
490,868.54,1228.29,1044.57
491,868.67,1230.01,1048.60
492,868.80,1231.72,1052.34
493,868.93,1233.44,1055.01
494,869.06,1235.16,1054.56
495,869.19,1236.87,1055.57
496,869.32,1238.59,1058.07
497,869.45,1240.30,1067.36
498,869.58,1242.01,1082.58
499,869.71,1243.73,1105.85
500,869.84,1245.44,1132.46
501,869.97,1247.15,1161.33
502,870.10,1248.85,1185.95
503,870.23,1250.56,1203.23
504,870.35,1252.27,1213.19
505,870.48,1253.97,1218.96
506,870.61,1255.68,1234.57
507,870.74,1257.38,1259.80
508,870.87,1259.08,1313.63
509,871.00,1260.79,1386.11
510,871.13,1262.49,1473.78
511,871.26,1264.19,1582.36
512,871.39,1265.88,1719.27
513,871.52,1267.58,1926.18
514,871.64,1269.28,2236.56
515,871.77,1270.97,2665.25
516,871.90,1272.67,3210.55
517,872.03,1274.36,3786.38
518,872.16,1276.05,4249.78
519,872.29,1277.75,4460.79
520,872.42,1279.44,4371.82
521,872.55,1281.13,4049.07
522,872.67,1282.82,3549.36
523,872.80,1284.50,3017.99
524,872.93,1286.19,2574.16
525,873.06,1287.88,2244.24
526,873.19,1289.56,1997.34
527,873.32,1291.24,1790.13
528,873.45,1292.93,1601.05
529,873.57,1294.61,1435.87
530,873.70,1296.29,1303.90
531,873.83,1297.97,1224.43
532,873.96,1299.65,1192.73
533,874.09,1301.33,1197.08
534,874.21,1303.00,1228.99
535,874.34,1304.68,1271.45
536,874.47,1306.35,1325.56
537,874.60,1308.03,1417.10
538,874.73,1309.70,1553.45
539,874.85,1311.37,1716.57
540,874.98,1313.04,1828.01
541,875.11,1314.71,1868.30
542,875.24,1316.38,1847.46
543,875.37,1318.05,1796.61
544,875.49,1319.71,1712.69
545,875.62,1321.38,1621.84
546,875.75,1323.05,1555.91
547,875.88,1324.71,1504.53
548,876.00,1326.37,1413.81
549,876.13,1328.03,1287.62
550,876.26,1329.69,1174.07
551,876.39,1331.35,1093.81
552,876.51,1333.01,1040.27
553,876.64,1334.67,1006.93
554,876.77,1336.33,994.82
555,876.90,1337.98,991.05
556,877.02,1339.64,987.85
557,877.15,1341.29,989.33
558,877.28,1342.95,988.12
559,877.41,1344.60,987.09
560,877.53,1346.25,987.18
561,877.66,1347.90,986.75
562,877.79,1349.55,993.41
563,877.91,1351.19,992.04
564,878.04,1352.84,995.93
565,878.17,1354.49,996.14
566,878.29,1356.13,1001.21
567,878.42,1357.78,1000.30
568,878.55,1359.42,1003.91
569,878.67,1361.06,1009.95
570,878.80,1362.70,1013.31
571,878.93,1364.34,1019.12
572,879.05,1365.98,1026.92
573,879.18,1367.62,1035.60
574,879.31,1369.26,1041.29
575,879.43,1370.89,1045.30
576,879.56,1372.53,1044.52
577,879.69,1374.16,1038.26
578,879.81,1375.79,1030.49
579,879.94,1377.43,1023.17
580,880.07,1379.06,1015.39
581,880.19,1380.69,1010.86
582,880.32,1382.32,1014.25
583,880.44,1383.94,1020.96
584,880.57,1385.57,1036.53
585,880.70,1387.20,1052.85
586,880.82,1388.82,1069.16
587,880.95,1390.45,1078.66
588,881.08,1392.07,1086.14
589,881.20,1393.69,1086.34
590,881.33,1395.31,1079.01
591,881.45,1396.93,1065.70
592,881.58,1398.55,1049.46
593,881.70,1400.17,1027.08
594,881.83,1401.79,1008.68
595,881.96,1403.40,990.87
596,882.08,1405.02,978.41
597,882.21,1406.63,970.06
598,882.33,1408.25,965.13
599,882.46,1409.86,965.31
600,882.58,1411.47,963.69
601,882.71,1413.08,963.90
602,882.83,1414.69,960.55
603,882.96,1416.30,958.27
604,883.09,1417.90,952.40
605,883.21,1419.51,945.34
606,883.34,1421.12,939.88
607,883.46,1422.72,933.86
608,883.59,1424.32,931.72
609,883.71,1425.93,929.81
610,883.84,1427.53,933.24
611,883.96,1429.13,937.23
612,884.09,1430.73,943.04
613,884.21,1432.32,951.86
614,884.34,1433.92,967.36
615,884.46,1435.52,990.56
616,884.59,1437.11,1025.13
617,884.71,1438.71,1079.11
618,884.84,1440.30,1167.36
619,884.96,1441.89,1308.55
620,885.08,1443.48,1511.54
621,885.21,1445.08,1760.78
622,885.33,1446.66,1978.95
623,885.46,1448.25,2089.22
624,885.58,1449.84,2082.40
625,885.71,1451.43,1956.63
626,885.83,1453.01,1734.64
627,885.96,1454.60,1476.41
628,886.08,1456.18,1266.97
629,886.20,1457.76,1131.28
630,886.33,1459.34,1049.73
631,886.45,1460.92,1001.44
632,886.58,1462.50,981.00
633,886.70,1464.08,970.47
634,886.83,1465.66,966.71
635,886.95,1467.24,966.97
636,887.07,1468.81,969.93
637,887.20,1470.39,974.24
638,887.32,1471.96,978.04
639,887.44,1473.53,981.65
640,887.57,1475.10,990.06
641,887.69,1476.67,1008.96
642,887.82,1478.24,1039.97
643,887.94,1479.81,1088.71
644,888.06,1481.38,1175.33
645,888.19,1482.94,1334.15
646,888.31,1484.51,1583.67
647,888.43,1486.07,1797.10
648,888.56,1487.64,1931.92
649,888.68,1489.20,2005.73
650,888.80,1490.76,1965.98
651,888.93,1492.32,1785.01
652,889.05,1493.88,1559.97
653,889.17,1495.44,1389.04
654,889.30,1497.00,1254.65
655,889.42,1498.55,1157.66
656,889.54,1500.11,1107.69
657,889.67,1501.66,1079.56
658,889.79,1503.22,1058.57
659,889.91,1504.77,1047.17
660,890.03,1506.32,1049.33
661,890.16,1507.87,1059.80
662,890.28,1509.42,1073.83
663,890.40,1510.97,1089.35
664,890.53,1512.52,1105.25
665,890.65,1514.07,1115.41
666,890.77,1515.61,1122.24
667,890.89,1517.16,1121.96
668,891.02,1518.70,1119.50
669,891.14,1520.24,1116.29
670,891.26,1521.78,1113.07
671,891.38,1523.32,1112.80
672,891.51,1524.86,1108.35
673,891.63,1526.40,1111.63
674,891.75,1527.94,1115.11
675,891.87,1529.48,1121.50
676,891.99,1531.01,1131.65
677,892.12,1532.55,1142.00
678,892.24,1534.08,1149.74
679,892.36,1535.61,1163.92
680,892.48,1537.15,1177.81
681,892.60,1538.68,1192.04
682,892.73,1540.21,1212.08
683,892.85,1541.73,1231.93
684,892.97,1543.26,1257.24
685,893.09,1544.79,1287.40
686,893.21,1546.32,1322.97
687,893.34,1547.84,1364.56
688,893.46,1549.36,1413.20
689,893.58,1550.89,1470.05
690,893.70,1552.41,1538.55
691,893.82,1553.93,1614.78
692,893.94,1555.45,1694.94
693,894.06,1556.97,1780.38
694,894.19,1558.49,1845.08
695,894.31,1560.00,1896.82
696,894.43,1561.52,1943.83
697,894.55,1563.03,1997.04
698,894.67,1564.55,2078.27
699,894.79,1566.06,2229.32
700,894.91,1567.57,2460.96
701,895.03,1569.08,2822.77
702,895.16,1570.59,3347.89
703,895.28,1572.10,4068.80
704,895.40,1573.61,4789.87
705,895.52,1575.12,5360.58
706,895.64,1576.62,5697.83
707,895.76,1578.13,5850.74
708,895.88,1579.63,5864.99
709,896.00,1581.13,5786.90
710,896.12,1582.64,5905.82
711,896.24,1584.14,6402.52
712,896.36,1585.64,7513.19
713,896.48,1587.14,9552.39
714,896.60,1588.63,12865.63
715,896.72,1590.13,17489.10
716,896.84,1591.63,22376.27
717,896.96,1593.12,26589.55
718,897.08,1594.62,29755.40
719,897.20,1596.11,31449.86
720,897.32,1597.60,30572.55
721,897.44,1599.09,27347.87
722,897.56,1600.58,22990.83
723,897.68,1602.07,18491.02
724,897.80,1603.56,13832.63
725,897.92,1605.05,9633.07
726,898.04,1606.53,6573.49
727,898.16,1608.02,4646.60
728,898.28,1609.50,3536.58
729,898.40,1610.98,2927.45
730,898.52,1612.47,2616.24
731,898.64,1613.95,2454.47
732,898.76,1615.43,2373.33
733,898.88,1616.91,2322.52
734,899.00,1618.38,2273.12
735,899.12,1619.86,2227.23
736,899.24,1621.34,2187.57
737,899.36,1622.81,2166.11
738,899.48,1624.29,2160.17
739,899.60,1625.76,2166.68
740,899.72,1627.23,2172.66
741,899.84,1628.70,2180.54
742,899.95,1630.17,2207.67
743,900.07,1631.64,2286.33
744,900.19,1633.11,2417.56
745,900.31,1634.58,2580.73
746,900.43,1636.04,2769.06
747,900.55,1637.51,3005.02
748,900.67,1638.97,3343.21
749,900.79,1640.44,3932.49
750,900.91,1641.90,5174.52
751,901.02,1643.36,7895.16
752,901.14,1644.82,12837.31
753,901.26,1646.28,18483.46
754,901.38,1647.74,22553.09
755,901.50,1649.19,24374.60
756,901.62,1650.65,24115.79
757,901.73,1652.11,21395.01
758,901.85,1653.56,16282.24
759,901.97,1655.01,10956.66
760,902.09,1656.47,7152.93
761,902.21,1657.92,4866.42
762,902.33,1659.37,3520.54
763,902.44,1660.82,2699.57
764,902.56,1662.27,2170.44
765,902.68,1663.71,1846.46
766,902.80,1665.16,1647.32
767,902.92,1666.60,1525.63
768,903.03,1668.05,1439.58
769,903.15,1669.49,1371.91
770,903.27,1670.93,1310.66
771,903.39,1672.38,1264.09
772,903.50,1673.82,1225.46
773,903.62,1675.26,1200.53
774,903.74,1676.69,1182.86
775,903.86,1678.13,1176.20
776,903.97,1679.57,1171.28
777,904.09,1681.00,1174.58
778,904.21,1682.44,1173.42
779,904.33,1683.87,1173.89
780,904.44,1685.30,1170.71
781,904.56,1686.74,1163.07
782,904.68,1688.17,1149.20
783,904.79,1689.60,1135.84
784,904.91,1691.02,1122.00
785,905.03,1692.45,1106.10
786,905.14,1693.88,1096.40
787,905.26,1695.30,1084.62
788,905.38,1696.73,1075.60
789,905.49,1698.15,1067.24
790,905.61,1699.57,1061.38
791,905.73,1701.00,1055.04
792,905.84,1702.42,1054.68
793,905.96,1703.84,1052.64
794,906.08,1705.25,1051.87
795,906.19,1706.67,1058.10
796,906.31,1708.09,1064.23
797,906.43,1709.50,1074.28
798,906.54,1710.92,1089.37
799,906.66,1712.33,1106.58
800,906.77,1713.74,1135.23
801,906.89,1715.16,1161.31
802,907.01,1716.57,1184.87
803,907.12,1717.98,1202.47
804,907.24,1719.38,1208.17
805,907.35,1720.79,1206.03
806,907.47,1722.20,1190.11
807,907.59,1723.60,1168.79
808,907.70,1725.01,1145.70
809,907.82,1726.41,1120.96
810,907.93,1727.82,1098.70
811,908.05,1729.22,1073.72
812,908.16,1730.62,1051.76
813,908.28,1732.02,1027.44
814,908.40,1733.42,1005.60
815,908.51,1734.81,983.04
816,908.63,1736.21,962.31
817,908.74,1737.61,946.97
818,908.86,1739.00,937.38
819,908.97,1740.40,929.47
820,909.09,1741.79,925.88
821,909.20,1743.18,921.93
822,909.32,1744.57,920.70
823,909.43,1745.96,920.37
824,909.55,1747.35,920.60
825,909.66,1748.74,918.70
826,909.78,1750.12,919.12
827,909.89,1751.51,918.21
828,910.01,1752.89,915.70
829,910.12,1754.28,916.85
830,910.23,1755.66,911.60
831,910.35,1757.04,908.00
832,910.46,1758.42,905.18
833,910.58,1759.80,902.72
834,910.69,1761.18,899.42
835,910.81,1762.56,894.89
836,910.92,1763.94,891.77
837,911.04,1765.31,887.88
838,911.15,1766.69,883.46
839,911.26,1768.06,882.05
840,911.38,1769.44,880.02
841,911.49,1770.81,879.58
842,911.61,1772.18,880.61
843,911.72,1773.55,882.35
844,911.83,1774.92,883.13
845,911.95,1776.28,887.28
846,912.06,1777.65,885.11
847,912.17,1779.02,884.06
848,912.29,1780.38,882.19
849,912.40,1781.75,878.64
850,912.51,1783.11,878.69
851,912.63,1784.47,876.23
852,912.74,1785.83,874.08
853,912.85,1787.19,873.10
854,912.97,1788.55,871.71
855,913.08,1789.91,872.03
856,913.19,1791.27,870.56
857,913.31,1792.62,869.38
858,913.42,1793.98,870.30
859,913.53,1795.33,871.14
860,913.65,1796.69,871.37
861,913.76,1798.04,870.26
862,913.87,1799.39,871.04
863,913.98,1800.74,870.42
864,914.10,1802.09,870.44
865,914.21,1803.44,869.17
866,914.32,1804.78,868.96
867,914.44,1806.13,873.77
868,914.55,1807.47,867.25
869,914.66,1808.82,867.66
870,914.77,1810.16,868.16
871,914.88,1811.50,871.29
872,915.00,1812.85,869.07
873,915.11,1814.19,870.52
874,915.22,1815.52,866.32
875,915.33,1816.86,864.76
876,915.45,1818.20,861.35
877,915.56,1819.54,857.81
878,915.67,1820.87,856.25
879,915.78,1822.21,852.41
880,915.89,1823.54,851.70
881,916.01,1824.87,850.46
882,916.12,1826.20,852.99
883,916.23,1827.53,853.41
884,916.34,1828.86,856.45
885,916.45,1830.19,858.53
886,916.56,1831.52,863.92
887,916.67,1832.84,869.71
888,916.79,1834.17,874.58
889,916.90,1835.49,882.92
890,917.01,1836.82,886.52
891,917.12,1838.14,890.79
892,917.23,1839.46,891.49
893,917.34,1840.78,891.97
894,917.45,1842.10,889.63
895,917.56,1843.42,885.26
896,917.68,1844.74,881.02
897,917.79,1846.05,878.71
898,917.90,1847.37,873.72
899,918.01,1848.68,871.03
900,918.12,1850.00,869.11
901,918.23,1851.31,869.00
902,918.34,1852.62,868.42
903,918.45,1853.93,869.37
904,918.56,1855.24,870.39
905,918.67,1856.55,871.34
906,918.78,1857.86,875.35
907,918.89,1859.16,879.01
908,919.00,1860.47,885.31
909,919.11,1861.77,892.16
910,919.22,1863.08,900.78
911,919.33,1864.38,911.21
912,919.44,1865.68,919.59
913,919.55,1866.98,926.35
914,919.66,1868.28,931.78
915,919.77,1869.58,934.87
916,919.88,1870.88,933.97
917,919.99,1872.17,923.70
918,920.10,1873.47,914.45
919,920.21,1874.76,902.40
920,920.32,1876.06,894.60
921,920.43,1877.35,885.03
922,920.54,1878.64,879.28
923,920.65,1879.93,878.24
924,920.76,1881.22,877.08
925,920.87,1882.51,879.25
926,920.98,1883.80,879.63
927,921.09,1885.08,884.46
928,921.19,1886.37,885.29
929,921.30,1887.65,886.88
930,921.41,1888.94,885.36
931,921.52,1890.22,883.92
932,921.63,1891.50,879.25
933,921.74,1892.78,871.97
934,921.85,1894.06,867.00
935,921.96,1895.34,860.29
936,922.07,1896.62,855.25
937,922.17,1897.90,850.81
938,922.28,1899.17,849.87
939,922.39,1900.45,845.71
940,922.50,1901.72,844.51
941,922.61,1902.99,843.00
942,922.72,1904.26,841.12
943,922.82,1905.54,839.62
944,922.93,1906.81,838.55
945,923.04,1908.07,837.63
946,923.15,1909.34,838.62
947,923.26,1910.61,838.29
948,923.36,1911.87,839.19
949,923.47,1913.14,839.83
950,923.58,1914.40,840.09
951,923.69,1915.67,842.83
952,923.80,1916.93,844.79
953,923.90,1918.19,845.99
954,924.01,1919.45,844.08
955,924.12,1920.71,845.30
956,924.23,1921.97,843.75
957,924.33,1923.22,842.64
958,924.44,1924.48,844.11
959,924.55,1925.73,843.30
960,924.65,1926.99,842.00
961,924.76,1928.24,844.63
962,924.87,1929.49,843.91
963,924.98,1930.74,845.63
964,925.08,1931.99,845.43
965,925.19,1933.24,847.20
966,925.30,1934.49,848.38
967,925.40,1935.74,852.08
968,925.51,1936.98,854.22
969,925.62,1938.23,855.54
970,925.72,1939.47,858.54
971,925.83,1940.71,860.10
972,925.94,1941.96,860.81
973,926.04,1943.20,858.20
974,926.15,1944.44,857.38
975,926.25,1945.68,854.19
976,926.36,1946.91,850.43
977,926.47,1948.15,846.58
978,926.57,1949.39,842.91
979,926.68,1950.62,840.71
980,926.79,1951.86,840.18
981,926.89,1953.09,838.09
982,927.00,1954.32,836.56
983,927.10,1955.55,834.28
984,927.21,1956.78,836.73
985,927.31,1958.01,837.52
986,927.42,1959.24,835.40
987,927.53,1960.47,836.83
988,927.63,1961.69,838.58
989,927.74,1962.92,839.97
990,927.84,1964.14,841.30
991,927.95,1965.37,844.70
992,928.05,1966.59,844.57
993,928.16,1967.81,846.00
994,928.26,1969.03,845.68
995,928.37,1970.25,842.12
996,928.47,1971.47,841.72
997,928.58,1972.69,840.67
998,928.68,1973.90,840.11
999,928.79,1975.12,840.28
1000,928.89,1976.33,841.23
1001,929.00,1977.54,842.29
1002,929.10,1978.76,843.63
1003,929.21,1979.97,844.46
1004,929.31,1981.18,844.96
1005,929.42,1982.39,844.72
1006,929.52,1983.60,844.95
1007,929.62,1984.80,843.70
1008,929.73,1986.01,841.88
1009,929.83,1987.21,841.13
1010,929.94,1988.42,840.55
1011,930.04,1989.62,840.56
1012,930.14,1990.82,840.06
1013,930.25,1992.03,840.53
1014,930.35,1993.23,842.17
1015,930.46,1994.43,843.09
1016,930.56,1995.62,844.10
1017,930.66,1996.82,844.79
1018,930.77,1998.02,849.87
1019,930.87,1999.21,846.57
1020,930.97,2000.41,845.91
1021,931.08,2001.60,846.62
1022,931.18,2002.79,845.56
1023,931.28,2003.98,844.89
